Frequenz/GHz	Spannung/V
1.000000	0.193841
1.020000	0.160707
1.040000	0.162979
1.060000	0.206662
1.080000	0.188629
1.100000	0.167993
1.120000	0.203266
1.140000	0.219911
1.160000	0.195091
1.180000	0.202646
1.200000	0.231596
1.220000	0.225171
1.240000	0.216481
1.260000	0.238251
1.280000	0.259481
1.300000	0.251371
1.320000	0.252361
1.340000	0.289901
1.360000	0.309471
1.380000	0.282261
1.400000	0.292091
1.420000	0.336331
1.440000	0.317716
1.460000	0.308546
1.480000	0.384401
1.500000	0.425121
1.520000	0.403326
1.540000	0.467541
1.560000	0.556821
1.580000	0.538061
1.600000	0.559796
1.620000	0.635561
1.640000	0.647081
1.660000	0.620561
1.680000	0.644371
1.700000	0.685661
1.720000	0.672441
1.740000	0.657931
1.760000	0.688676
1.780000	0.702136
1.800000	0.681941
1.820000	0.692686
1.840000	0.711481
1.860000	0.699136
1.880000	0.700241
1.900000	0.715511
1.920000	0.717701
1.940000	0.714991
1.960000	0.717191
1.980000	0.723981
2.000000	0.720471
2.020000	0.726311
2.040000	0.726136
2.060000	0.727696
2.080000	0.727171
2.100000	0.727796
2.120000	0.728171
2.140000	0.729836
2.160000	0.729306
2.180000	0.727861
2.200000	0.726456
2.220000	0.725311
2.240000	0.726661
2.260000	0.727841
2.280000	0.727556
2.300000	0.728111
2.320000	0.728396
2.340000	0.729491
2.360000	0.728291
2.380000	0.725426
2.400000	0.725441
2.420000	0.727166
2.440000	0.725941
2.460000	0.722851
2.480000	0.721986
2.500000	0.721141
2.520000	0.722901
2.540000	0.723341
2.560000	0.720741
2.580000	0.719411
2.600000	0.722591
2.620000	0.724441
2.640000	0.722721
2.660000	0.722506
2.680000	0.722296
2.700000	0.722761
2.720000	0.723161
2.740000	0.722576
2.760000	0.719346
2.780000	0.719241
2.800000	0.722311
2.820000	0.722571
2.840000	0.720441
2.860000	0.722111
2.880000	0.722621
2.900000	0.722631
2.920000	0.723861
2.940000	0.723971
2.960000	0.721411
2.980000	0.719731
3.000000	0.720931
3.020000	0.722421
3.040000	0.718181
3.060000	0.714701
3.080000	0.715171
3.100000	0.715651
3.120000	0.716701
3.140000	0.715011
3.160000	0.713811
3.180000	0.714551
3.200000	0.717221
3.220000	0.718036
3.240000	0.716556
3.260000	0.717311
3.280000	0.716831
3.300000	0.715431
3.320000	0.713721
3.340000	0.710716
3.360000	0.709541
3.380000	0.711326
3.400000	0.712751
3.420000	0.713021
3.440000	0.711221
3.460000	0.713201
3.480000	0.713661
3.500000	0.713421
3.520000	0.715391
3.540000	0.714771
3.560000	0.714051
3.580000	0.714606
3.600000	0.715011
3.620000	0.713891
3.640000	0.712931
3.660000	0.712921
3.680000	0.712486
3.700000	0.713001
3.720000	0.713441
3.740000	0.710951
3.760000	0.709891
3.780000	0.710141
3.800000	0.709381
3.820000	0.708631
3.840000	0.709211
3.860000	0.710311
3.880000	0.709951
3.900000	0.710626
3.920000	0.712091
3.940000	0.711141
3.960000	0.708751
3.980000	0.708291
4.000000	0.709601
4.020000	0.708681
4.040000	0.704466
4.060000	0.700011
4.080000	0.698581
4.100000	0.698901
4.120000	0.695771
4.140000	0.686511
4.160000	0.679341
4.180000	0.679751
4.200000	0.678496
4.220000	0.670761
4.240000	0.662381
4.260000	0.658661
4.280000	0.656936
4.300000	0.653361
4.320000	0.648441
4.340000	0.646186
4.360000	0.646711
4.380000	0.647541
4.400000	0.636491
4.420000	0.483146
4.440000	0.390151
4.460000	0.440641
4.480000	0.463016
4.500000	0.471251
4.520000	0.471541
4.540000	0.467861
4.560000	0.465921
4.580000	0.465921
4.600000	0.460791
4.620000	0.450351
4.640000	0.442636
4.660000	0.443051
4.680000	0.444831
4.700000	0.438256
4.720000	0.429281
4.740000	0.427691
4.760000	0.430881
4.780000	0.428011
4.800000	0.417726
4.820000	0.414261
4.840000	0.421461
4.860000	0.428901
4.880000	0.425651
4.900000	0.419741
4.920000	0.423521
4.940000	0.432461
4.960000	0.435041
4.980000	0.429671
5.000000	0.428676
